Trial,Stim,Duration,QuartetOrder,Instruct_V_H,illusory_physical,V_buttom,H_buttom,vertical,horizontal,invalid_ResponseKey,invalid_ResponseTime,ResponseKey,ResponseTime,expected_key,success,Timestamp,Onset
1,PrecueTime,10,"quartetPart1, quartetPart2",vertical,illusory,1,2,red_Square,blue_Square,None,None,1,28.398452699999325,1,True,10,0
1,DelayTime,5,"quartetPart1, quartetPart2",vertical,illusory,1,2,red_Square,blue_Square,None,None,1,28.398452699999325,1,True,15,10
1,SwitchTime,2,"quartetPart1, quartetPart2",vertical,illusory,1,2,red_Square,blue_Square,None,None,1,28.398452699999325,1,True,17,15
1,ReportTime,4,"quartetPart1, quartetPart2",vertical,illusory,1,2,red_Square,blue_Square,None,None,1,28.398452699999325,1,True,21,17
2,PrecueTime,8,"quartetPart1, quartetPart2",vertical,illusory,1,3,red_Square,blue_Square,None,None,1,61.96178569999756,1,True,29,21
2,DelayTime,6,"quartetPart1, quartetPart2",vertical,illusory,1,3,red_Square,blue_Square,None,None,1,61.96178569999756,1,True,35,29
2,SwitchTime,3,"quartetPart1, quartetPart2",vertical,illusory,1,3,red_Square,blue_Square,None,None,1,61.96178569999756,1,True,38,35
2,ReportTime,4,"quartetPart1, quartetPart2",vertical,illusory,1,3,red_Square,blue_Square,None,None,1,61.96178569999756,1,True,42,38
3,PrecueTime,10,"quartetPart2, quartetPart1",horizontal,illusory,3,1,red_Square,blue_Square,None,None,1,95.89314780000132,1,True,52,42
3,DelayTime,4,"quartetPart2, quartetPart1",horizontal,illusory,3,1,red_Square,blue_Square,None,None,1,95.89314780000132,1,True,56,52
3,SwitchTime,3,"quartetPart2, quartetPart1",horizontal,illusory,3,1,red_Square,blue_Square,None,None,1,95.89314780000132,1,True,59,56
3,ReportTime,4,"quartetPart2, quartetPart1",horizontal,illusory,3,1,red_Square,blue_Square,None,None,1,95.89314780000132,1,True,63,59
4,PrecueTime,8,"quartetPart2, quartetPart1",vertical,illusory,4,3,red_Square,blue_Square,None,None,4,129.87345250000362,4,True,71,63
4,DelayTime,5,"quartetPart2, quartetPart1",vertical,illusory,4,3,red_Square,blue_Square,None,None,4,129.87345250000362,4,True,76,71
4,SwitchTime,4,"quartetPart2, quartetPart1",vertical,illusory,4,3,red_Square,blue_Square,None,None,4,129.87345250000362,4,True,80,76
4,ReportTime,4,"quartetPart2, quartetPart1",vertical,illusory,4,3,red_Square,blue_Square,None,None,4,129.87345250000362,4,True,84,80
5,PrecueTime,10,"quartetPart2, quartetPart1",horizontal,illusory,2,1,red_Square,blue_Square,None,None,1,163.77207629999612,1,True,94,84
5,DelayTime,4,"quartetPart2, quartetPart1",horizontal,illusory,2,1,red_Square,blue_Square,None,None,1,163.77207629999612,1,True,98,94
5,SwitchTime,3,"quartetPart2, quartetPart1",horizontal,illusory,2,1,red_Square,blue_Square,None,None,1,163.77207629999612,1,True,101,98
5,ReportTime,4,"quartetPart2, quartetPart1",horizontal,illusory,2,1,red_Square,blue_Square,None,None,1,163.77207629999612,1,True,105,101
6,PrecueTime,8,"quartetPart2, quartetPart1",horizontal,illusory,4,1,red_Square,blue_Square,None,None,1,197.60316189998412,1,True,113,105
6,DelayTime,5,"quartetPart2, quartetPart1",horizontal,illusory,4,1,red_Square,blue_Square,None,None,1,197.60316189998412,1,True,118,113
6,SwitchTime,4,"quartetPart2, quartetPart1",horizontal,illusory,4,1,red_Square,blue_Square,None,None,1,197.60316189998412,1,True,122,118
6,ReportTime,4,"quartetPart2, quartetPart1",horizontal,illusory,4,1,red_Square,blue_Square,None,None,1,197.60316189998412,1,True,126,122
7,PrecueTime,8,"quartetPart2, quartetPart1",vertical,illusory,3,2,red_Square,blue_Square,None,None,3,231.6507789999887,3,True,134,126
7,DelayTime,6,"quartetPart2, quartetPart1",vertical,illusory,3,2,red_Square,blue_Square,None,None,3,231.6507789999887,3,True,140,134
7,SwitchTime,3,"quartetPart2, quartetPart1",vertical,illusory,3,2,red_Square,blue_Square,None,None,3,231.6507789999887,3,True,143,140
7,ReportTime,4,"quartetPart2, quartetPart1",vertical,illusory,3,2,red_Square,blue_Square,None,None,3,231.6507789999887,3,True,147,143
8,PrecueTime,9,"quartetPart1, quartetPart2",vertical,illusory,2,4,red_Square,blue_Square,None,None,2,265.3139184000029,2,True,156,147
8,DelayTime,6,"quartetPart1, quartetPart2",vertical,illusory,2,4,red_Square,blue_Square,None,None,2,265.3139184000029,2,True,162,156
8,SwitchTime,2,"quartetPart1, quartetPart2",vertical,illusory,2,4,red_Square,blue_Square,None,None,2,265.3139184000029,2,True,164,162
8,ReportTime,4,"quartetPart1, quartetPart2",vertical,illusory,2,4,red_Square,blue_Square,None,None,2,265.3139184000029,2,True,168,164
9,PrecueTime,9,"quartetPart1, quartetPart2",horizontal,illusory,3,4,red_Square,blue_Square,None,None,4,299.1616803999932,4,True,177,168
9,DelayTime,4,"quartetPart1, quartetPart2",horizontal,illusory,3,4,red_Square,blue_Square,None,None,4,299.1616803999932,4,True,181,177
9,SwitchTime,4,"quartetPart1, quartetPart2",horizontal,illusory,3,4,red_Square,blue_Square,None,None,4,299.1616803999932,4,True,185,181
9,ReportTime,4,"quartetPart1, quartetPart2",horizontal,illusory,3,4,red_Square,blue_Square,None,None,4,299.1616803999932,4,True,189,185
10,PrecueTime,9,"quartetPart1, quartetPart2",horizontal,illusory,1,4,red_Square,blue_Square,None,None,4,332.8917126999877,4,True,198,189
10,DelayTime,4,"quartetPart1, quartetPart2",horizontal,illusory,1,4,red_Square,blue_Square,None,None,4,332.8917126999877,4,True,202,198
10,SwitchTime,4,"quartetPart1, quartetPart2",horizontal,illusory,1,4,red_Square,blue_Square,None,None,4,332.8917126999877,4,True,206,202
10,ReportTime,4,"quartetPart1, quartetPart2",horizontal,illusory,1,4,red_Square,blue_Square,None,None,4,332.8917126999877,4,True,210,206
