Trial,Stim,Duration,QuartetOrder,Instruct_V_H,illusory_physical,V_buttom,H_buttom,vertical,horizontal,invalid_ResponseKey,invalid_ResponseTime,ResponseKey,ResponseTime,expected_key,success,Timestamp,Onset
1,PrecueTime,8,"quartetPart1, quartetPart2",horizontal,illusory,2,3,red_Square,blue_Square,None,None,3,28.33920930000022,3,True,8,0
1,DelayTime,5,"quartetPart1, quartetPart2",horizontal,illusory,2,3,red_Square,blue_Square,None,None,3,28.33920930000022,3,True,13,8
1,SwitchTime,4,"quartetPart1, quartetPart2",horizontal,illusory,2,3,red_Square,blue_Square,None,None,3,28.33920930000022,3,True,17,13
1,ReportTime,4,"quartetPart1, quartetPart2",horizontal,illusory,2,3,red_Square,blue_Square,None,None,3,28.33920930000022,3,True,21,17
2,PrecueTime,8,"quartetPart1, quartetPart2",horizontal,illusory,4,1,red_Square,blue_Square,None,None,1,62.12128219997976,1,True,29,21
2,DelayTime,6,"quartetPart1, quartetPart2",horizontal,illusory,4,1,red_Square,blue_Square,None,None,1,62.12128219997976,1,True,35,29
2,SwitchTime,3,"quartetPart1, quartetPart2",horizontal,illusory,4,1,red_Square,blue_Square,None,None,1,62.12128219997976,1,True,38,35
2,ReportTime,4,"quartetPart1, quartetPart2",horizontal,illusory,4,1,red_Square,blue_Square,None,None,1,62.12128219997976,1,True,42,38
3,PrecueTime,10,"quartetPart2, quartetPart1",vertical,illusory,2,4,red_Square,blue_Square,None,None,2,96.3175912000006,2,True,52,42
3,DelayTime,5,"quartetPart2, quartetPart1",vertical,illusory,2,4,red_Square,blue_Square,None,None,2,96.3175912000006,2,True,57,52
3,SwitchTime,2,"quartetPart2, quartetPart1",vertical,illusory,2,4,red_Square,blue_Square,None,None,2,96.3175912000006,2,True,59,57
3,ReportTime,4,"quartetPart2, quartetPart1",vertical,illusory,2,4,red_Square,blue_Square,None,None,2,96.3175912000006,2,True,63,59
4,PrecueTime,10,"quartetPart1, quartetPart2",vertical,illusory,4,3,red_Square,blue_Square,None,None,4,130.38167779997457,4,True,73,63
4,DelayTime,4,"quartetPart1, quartetPart2",vertical,illusory,4,3,red_Square,blue_Square,None,None,4,130.38167779997457,4,True,77,73
4,SwitchTime,3,"quartetPart1, quartetPart2",vertical,illusory,4,3,red_Square,blue_Square,None,None,4,130.38167779997457,4,True,80,77
4,ReportTime,4,"quartetPart1, quartetPart2",vertical,illusory,4,3,red_Square,blue_Square,None,None,4,130.38167779997457,4,True,84,80
5,PrecueTime,9,"quartetPart2, quartetPart1",vertical,illusory,1,3,red_Square,blue_Square,None,None,1,163.6124788999732,1,True,93,84
5,DelayTime,6,"quartetPart2, quartetPart1",vertical,illusory,1,3,red_Square,blue_Square,None,None,1,163.6124788999732,1,True,99,93
5,SwitchTime,2,"quartetPart2, quartetPart1",vertical,illusory,1,3,red_Square,blue_Square,None,None,1,163.6124788999732,1,True,101,99
5,ReportTime,4,"quartetPart2, quartetPart1",vertical,illusory,1,3,red_Square,blue_Square,None,None,1,163.6124788999732,1,True,105,101
6,PrecueTime,10,"quartetPart2, quartetPart1",vertical,illusory,3,2,red_Square,blue_Square,None,None,3,197.49352669998189,3,True,115,105
6,DelayTime,5,"quartetPart2, quartetPart1",vertical,illusory,3,2,red_Square,blue_Square,None,None,3,197.49352669998189,3,True,120,115
6,SwitchTime,2,"quartetPart2, quartetPart1",vertical,illusory,3,2,red_Square,blue_Square,None,None,3,197.49352669998189,3,True,122,120
6,ReportTime,4,"quartetPart2, quartetPart1",vertical,illusory,3,2,red_Square,blue_Square,None,None,3,197.49352669998189,3,True,126,122
7,PrecueTime,8,"quartetPart1, quartetPart2",horizontal,illusory,1,2,red_Square,blue_Square,None,None,2,231.70757420000155,2,True,134,126
7,DelayTime,5,"quartetPart1, quartetPart2",horizontal,illusory,1,2,red_Square,blue_Square,None,None,2,231.70757420000155,2,True,139,134
7,SwitchTime,4,"quartetPart1, quartetPart2",horizontal,illusory,1,2,red_Square,blue_Square,None,None,2,231.70757420000155,2,True,143,139
7,ReportTime,4,"quartetPart1, quartetPart2",horizontal,illusory,1,2,red_Square,blue_Square,None,None,2,231.70757420000155,2,True,147,143
8,PrecueTime,8,"quartetPart2, quartetPart1",horizontal,illusory,3,4,red_Square,blue_Square,None,None,4,265.32183419997455,4,True,155,147
8,DelayTime,6,"quartetPart2, quartetPart1",horizontal,illusory,3,4,red_Square,blue_Square,None,None,4,265.32183419997455,4,True,161,155
8,SwitchTime,3,"quartetPart2, quartetPart1",horizontal,illusory,3,4,red_Square,blue_Square,None,None,4,265.32183419997455,4,True,164,161
8,ReportTime,4,"quartetPart2, quartetPart1",horizontal,illusory,3,4,red_Square,blue_Square,None,None,4,265.32183419997455,4,True,168,164
9,PrecueTime,8,"quartetPart2, quartetPart1",vertical,illusory,2,1,red_Square,blue_Square,None,None,2,299.4026639999938,2,True,176,168
9,DelayTime,6,"quartetPart2, quartetPart1",vertical,illusory,2,1,red_Square,blue_Square,None,None,2,299.4026639999938,2,True,182,176
9,SwitchTime,3,"quartetPart2, quartetPart1",vertical,illusory,2,1,red_Square,blue_Square,None,None,2,299.4026639999938,2,True,185,182
9,ReportTime,4,"quartetPart2, quartetPart1",vertical,illusory,2,1,red_Square,blue_Square,None,None,2,299.4026639999938,2,True,189,185
10,PrecueTime,8,"quartetPart1, quartetPart2",horizontal,illusory,4,2,red_Square,blue_Square,None,None,2,334.1348659999785,2,True,197,189
10,DelayTime,5,"quartetPart1, quartetPart2",horizontal,illusory,4,2,red_Square,blue_Square,None,None,2,334.1348659999785,2,True,202,197
10,SwitchTime,4,"quartetPart1, quartetPart2",horizontal,illusory,4,2,red_Square,blue_Square,None,None,2,334.1348659999785,2,True,206,202
10,ReportTime,4,"quartetPart1, quartetPart2",horizontal,illusory,4,2,red_Square,blue_Square,None,None,2,334.1348659999785,2,True,210,206
