Trial,Stim,Duration,QuartetOrder,Instruct_V_H,illusory_physical,V_buttom,H_buttom,vertical,horizontal,invalid_ResponseKey,invalid_ResponseTime,ResponseKey,ResponseTime,expected_key,success,Timestamp,Onset
1,PrecueTime,10,"quartetPart1, quartetPart2",vertical,illusory,2,4,blue_Square,red_Square,None,None,4,28.268129300005967,2,,10,0
1,DelayTime,4,"quartetPart1, quartetPart2",vertical,illusory,2,4,blue_Square,red_Square,None,None,4,28.268129300005967,2,,14,10
1,SwitchTime,3,"quartetPart1, quartetPart2",vertical,illusory,2,4,blue_Square,red_Square,None,None,4,28.268129300005967,2,,17,14
1,ReportTime,4,"quartetPart1, quartetPart2",vertical,illusory,2,4,blue_Square,red_Square,None,None,4,28.268129300005967,2,,21,17
2,PrecueTime,9,"quartetPart2, quartetPart1",horizontal,illusory,3,1,blue_Square,red_Square,None,None,1,63.1812678000133,1,True,30,21
2,DelayTime,5,"quartetPart2, quartetPart1",horizontal,illusory,3,1,blue_Square,red_Square,None,None,1,63.1812678000133,1,True,35,30
2,SwitchTime,3,"quartetPart2, quartetPart1",horizontal,illusory,3,1,blue_Square,red_Square,None,None,1,63.1812678000133,1,True,38,35
2,ReportTime,4,"quartetPart2, quartetPart1",horizontal,illusory,3,1,blue_Square,red_Square,None,None,1,63.1812678000133,1,True,42,38
3,PrecueTime,8,"quartetPart2, quartetPart1",vertical,illusory,4,1,blue_Square,red_Square,None,None,4,96.29549869999755,4,True,50,42
3,DelayTime,5,"quartetPart2, quartetPart1",vertical,illusory,4,1,blue_Square,red_Square,None,None,4,96.29549869999755,4,True,55,50
3,SwitchTime,4,"quartetPart2, quartetPart1",vertical,illusory,4,1,blue_Square,red_Square,None,None,4,96.29549869999755,4,True,59,55
3,ReportTime,4,"quartetPart2, quartetPart1",vertical,illusory,4,1,blue_Square,red_Square,None,None,4,96.29549869999755,4,True,63,59
4,PrecueTime,10,"quartetPart2, quartetPart1",vertical,illusory,2,1,blue_Square,red_Square,None,None,2,130.07642250001663,2,True,73,63
4,DelayTime,5,"quartetPart2, quartetPart1",vertical,illusory,2,1,blue_Square,red_Square,None,None,2,130.07642250001663,2,True,78,73
4,SwitchTime,2,"quartetPart2, quartetPart1",vertical,illusory,2,1,blue_Square,red_Square,None,None,2,130.07642250001663,2,True,80,78
4,ReportTime,4,"quartetPart2, quartetPart1",vertical,illusory,2,1,blue_Square,red_Square,None,None,2,130.07642250001663,2,True,84,80
5,PrecueTime,8,"quartetPart1, quartetPart2",horizontal,illusory,1,2,blue_Square,red_Square,None,None,2,164.2578310999961,2,True,92,84
5,DelayTime,5,"quartetPart1, quartetPart2",horizontal,illusory,1,2,blue_Square,red_Square,None,None,2,164.2578310999961,2,True,97,92
5,SwitchTime,4,"quartetPart1, quartetPart2",horizontal,illusory,1,2,blue_Square,red_Square,None,None,2,164.2578310999961,2,True,101,97
5,ReportTime,4,"quartetPart1, quartetPart2",horizontal,illusory,1,2,blue_Square,red_Square,None,None,2,164.2578310999961,2,True,105,101
6,PrecueTime,9,"quartetPart2, quartetPart1",vertical,illusory,4,2,blue_Square,red_Square,None,None,4,197.42356570000993,4,True,114,105
6,DelayTime,4,"quartetPart2, quartetPart1",vertical,illusory,4,2,blue_Square,red_Square,None,None,4,197.42356570000993,4,True,118,114
6,SwitchTime,4,"quartetPart2, quartetPart1",vertical,illusory,4,2,blue_Square,red_Square,None,None,4,197.42356570000993,4,True,122,118
6,ReportTime,4,"quartetPart2, quartetPart1",vertical,illusory,4,2,blue_Square,red_Square,None,None,4,197.42356570000993,4,True,126,122
7,PrecueTime,8,"quartetPart1, quartetPart2",vertical,illusory,3,2,blue_Square,red_Square,None,None,3,231.68681220000144,3,True,134,126
7,DelayTime,5,"quartetPart1, quartetPart2",vertical,illusory,3,2,blue_Square,red_Square,None,None,3,231.68681220000144,3,True,139,134
7,SwitchTime,4,"quartetPart1, quartetPart2",vertical,illusory,3,2,blue_Square,red_Square,None,None,3,231.68681220000144,3,True,143,139
7,ReportTime,4,"quartetPart1, quartetPart2",vertical,illusory,3,2,blue_Square,red_Square,None,None,3,231.68681220000144,3,True,147,143
8,PrecueTime,10,"quartetPart2, quartetPart1",horizontal,illusory,1,4,blue_Square,red_Square,None,None,4,265.4999659000023,4,True,157,147
8,DelayTime,4,"quartetPart2, quartetPart1",horizontal,illusory,1,4,blue_Square,red_Square,None,None,4,265.4999659000023,4,True,161,157
8,SwitchTime,3,"quartetPart2, quartetPart1",horizontal,illusory,1,4,blue_Square,red_Square,None,None,4,265.4999659000023,4,True,164,161
8,ReportTime,4,"quartetPart2, quartetPart1",horizontal,illusory,1,4,blue_Square,red_Square,None,None,4,265.4999659000023,4,True,168,164
9,PrecueTime,9,"quartetPart1, quartetPart2",horizontal,illusory,4,3,blue_Square,red_Square,None,None,3,299.4478491000191,3,True,177,168
9,DelayTime,4,"quartetPart1, quartetPart2",horizontal,illusory,4,3,blue_Square,red_Square,None,None,3,299.4478491000191,3,True,181,177
9,SwitchTime,4,"quartetPart1, quartetPart2",horizontal,illusory,4,3,blue_Square,red_Square,None,None,3,299.4478491000191,3,True,185,181
9,ReportTime,4,"quartetPart1, quartetPart2",horizontal,illusory,4,3,blue_Square,red_Square,None,None,3,299.4478491000191,3,True,189,185
10,PrecueTime,8,"quartetPart1, quartetPart2",horizontal,illusory,3,4,blue_Square,red_Square,None,None,3,332.94484609999927,4,,197,189
10,DelayTime,6,"quartetPart1, quartetPart2",horizontal,illusory,3,4,blue_Square,red_Square,None,None,3,332.94484609999927,4,,203,197
10,SwitchTime,3,"quartetPart1, quartetPart2",horizontal,illusory,3,4,blue_Square,red_Square,None,None,3,332.94484609999927,4,,206,203
10,ReportTime,4,"quartetPart1, quartetPart2",horizontal,illusory,3,4,blue_Square,red_Square,None,None,3,332.94484609999927,4,,210,206
